{
    "resourceType": "Bundle",
    "type": "document",
    "entry": [
        {
            "resource": {
                "resourceType": "Composition",
                "id": "composition-0",
                "status": "final",
                "type": {
                    "coding": [
                        {
                            "system": "http://loinc.org",
                            "code": "11516-2",
                            "display": "Physician Records total Encounter"
                        }
                    ]
                },
                "category": [
                    {
                        "coding": [
                            {
                                "system": "http://loinc.org",
                                "code": "11488-4",
                                "display": "Consult Note"
                            }
                        ]
                    }
                ],
                "subject": {
                    "reference": "Patient/9bb9e704-ed22-4eae-83e0-7d040605ed3b"
                },
                "encounter": {
                    "reference": "Encounter/1999576c-46ec-40b2-b663-c84c3764cd2b"
                },
                "date": "2024-12-05T10:30:00-05:00",
                "author": [
                    {
                        "reference": "Practitioner/feb1e63b-d4ed-4b53-9d1f-8d9efa339b0a"
                    }
                ],
                "title": "Epicrisis de consulta ambulatoria",
                "confidentiality": "N",
                "attester": [
                    {
                        "mode": "professional",
                        "time": "2024-12-05T10:30:00-05:00",
                        "party": {
                            "reference": "Practitioner/feb1e63b-d4ed-4b53-9d1f-8d9efa339b0a"
                        }
                    }
                ],
                "custodian": {
                    "reference": "Organization/3565ccc1-95b4-47ef-8cc9-5652dba007e6"
                },
                "section": [
                    {
                        "title": "Active Problems",
                        "code": {
                            "coding": [
                                {
                                    "system": "http://loinc.org",
                                    "code": "11450-4",
                                    "display": "Problem list Reported"
                                }
                            ]
                        },
                        "entry": [
                            {
                                "reference": "#condition-0"
                            },
                            {
                                "reference": "#condition-1"
                            },
                            {
                                "reference": "#condition-2"
                            }
                        ]
                    } 
                ]
            }
        },
        {
            "resource": {
                "resourceType": "Patient",
                "id": "9bb9e704-ed22-4eae-83e0-7d040605ed3b",
                "meta": {
                    "versionId": "3",
                    "lastUpdated": "2024-12-03T16:42:04.101+00:00"
                },
                "identifier": [
                    {
                        "use": "official",
                        "type": {
                            "coding": [
                                {
                                    "system": "http://terminology.hl7.org/CodeSystem/v2-0203",
                                    "code": "PN",
                                    "display": "Person Number"
                                }
                            ]
                        },
                        "system": "http://co.fhir.guide/NamingSystem/RNEC",
                        "value": "3421873487",
                        "period": {
                            "start": "1994-06-01"
                        }
                    }
                ],
                "active": true,
                "name": [
                    {
                        "family": "Rodriguez Perez",
                        "given": [
                            "Angélica",
                            "Maria del Carmen"
                        ]
                    }
                ],
                "gender": "female",
                "birthDate": "1976-05-30"
            }
        },
        {
            "resource": {
                "resourceType": "Condition",
                "id": "condition-0",
                "meta": {
                    "profile": [
                        "http://co.fhir.guide/core/StructureDefinition/ConditionCO"
                    ]
                },
                "clinicalStatus": {
                    "coding": [
                        {
                            "system": "http://terminology.hl7.org/CodeSystem/condition-clinical",
                            "code": "active",
                            "display": "Active"
                        }
                    ]
                },
                "verificationStatus": {
                    "coding": [
                        {
                            "system": "http://terminology.hl7.org/CodeSystem/condition-ver-status",
                            "code": "confirmed",
                            "display": "Confirmed"
                        }
                    ]
                },
                "category": [
                    {
                        "coding": [
                            {
                                "system": "http://terminology.hl7.org/CodeSystem/condition-category",
                                "code": "encounter-diagnosis",
                                "display": "Encounter Diagnosis"
                            }
                        ]
                    }
                ],
                "subject": {
                    "reference": "Patient/9bb9e704-ed22-4eae-83e0-7d040605ed3b"
                },
                "code": {
                    "coding": [
                        {
                            "system": "http://hl7.org/fhir/sid/icd-10",
                            "code": "J15.9",
                            "display": "NEUMONIA BACTERIANA, NO ESPECIFICADA"
                        }
                    ]
                },
                "recordedDate": "2024-12-05",
                "recorder": {
                    "reference": "Practitioner/feb1e63b-d4ed-4b53-9d1f-8d9efa339b0a"
                },
                "asserter": {
                    "reference": "Practitioner/feb1e63b-d4ed-4b53-9d1f-8d9efa339b0a"
                },
                "evidence": [
                    {
                        "code": [
                            {
                                "coding": [
                                    {
                                        "system": "http://snomed.info/sct",
                                        "code": "386661006",
                                        "display": "Fiebre (hallazgo)"
                                    }
                                ]
                            }
                        ]
                    },
                    {
                        "code": [
                            {
                                "coding": [
                                    {
                                        "system": "http://snomed.info/sct",
                                        "code": "11833005",
                                        "display": "Tos con expectoración (hallazgo)"
                                    }
                                ]
                            }
                        ]
                    },
                    {
                        "code": [
                            {
                                "coding": [
                                    {
                                        "system": "http://snomed.info/sct",
                                        "code": "102592001",
                                        "display": "Dolor torácico pleurítico (hallazgo)"
                                    }
                                ]
                            }
                        ]
                    },
                    {
                        "code": [
                            {
                                "coding": [
                                    {
                                        "system": "http://snomed.info/sct",
                                        "code": "267036007",
                                        "display": "Disnea (hallazgo)"
                                    }
                                ]
                            }
                        ]
                    },
                    {
                        "code": [
                            {
                                "coding": [
                                    {
                                        "system": "http://snomed.info/sct",
                                        "code": "84229001",
                                        "display": "Malestar general (hallazgo)"
                                    }
                                ]
                            }
                        ]
                    },
                    {
                        "detail": [
                            {
                                "reference": "DiagnosticReport/a6e2540d-7ce1-45f4-8e11-8a2161bb9c93",
                                "display": "Radiografía de tórax mostrando infiltrados pulmonares"
                            },
                            {
                                "reference": "DiagnosticReport/441d53b0-09bc-48fe-8172-cef57f3055f6",
                                "display": "Cultivo bacteriano o prueba rápida de detección"
                            }
                        ]
                    }
                ],
                "note": [
                    {
                        "text": "Infección bacteriana del parénquima pulmonar que provoca inflamación y acumulación de líquidos en los alvéolos."
                    },
                    {
                        "text": "Estertores crepitantes a la auscultación"
                    },
                    {
                        "text": "Hipoxemia (confirmada por oximetría o gasometría arterial)"
                    }
                ]
            }
        },
        {
            "resource": {
                "resourceType": "Condition",
                "id": "b368be4f-b8fa-41ab-9e8d-28f1c820fb2d",
                "meta": {
                    "profile": [
                        "http://co.fhir.guide/core/StructureDefinition/ConditionCO"
                    ]
                },
                "clinicalStatus": {
                    "coding": [
                        {
                            "system": "http://terminology.hl7.org/CodeSystem/condition-clinical",
                            "code": "active",
                            "display": "Active"
                        }
                    ]
                },
                "verificationStatus": {
                    "coding": [
                        {
                            "system": "http://terminology.hl7.org/CodeSystem/condition-ver-status",
                            "code": "confirmed",
                            "display": "Confirmed"
                        }
                    ]
                },
                "category": [
                    {
                        "coding": [
                            {
                                "system": "http://terminology.hl7.org/CodeSystem/condition-category",
                                "code": "encounter-diagnosis",
                                "display": "Encounter Diagnosis"
                            }
                        ]
                    }
                ],
                "subject": {
                    "reference": "Patient/9bb9e704-ed22-4eae-83e0-7d040605ed3b"
                },
                "code": {
                    "coding": [
                        {
                            "system": "http://hl7.org/fhir/sid/icd-10",
                            "code": "J44.9",
                            "display": "ENFERMEDAD PULMONAR OBSTRUCTIVA CRONICA, NO ESPECIFICADA"
                        }
                    ]
                },
                "recordedDate": "2024-12-09",
                "recorder": {
                    "reference": "Practitioner/feb1e63b-d4ed-4b53-9d1f-8d9efa339b0a"
                },
                "asserter": {
                    "reference": "Practitioner/feb1e63b-d4ed-4b53-9d1f-8d9efa339b0a"
                },
                "evidence": [
                    {
                        "code": [
                            {
                                "coding": [
                                    {
                                        "system": "http://snomed.info/sct",
                                        "code": "40917007",
                                        "display": "Tos crónica (hallazgo)"
                                    }
                                ]
                            }
                        ]
                    },
                    {
                        "code": [
                            {
                                "coding": [
                                    {
                                        "system": "http://snomed.info/sct",
                                        "code": "267036007",
                                        "display": "Disnea progresiva (hallazgo)"
                                    }
                                ]
                            }
                        ]
                    },
                    {
                        "code": [
                            {
                                "coding": [
                                    {
                                        "system": "http://snomed.info/sct",
                                        "code": "56018004",
                                        "display": "Sibilancias (hallazgo)"
                                    }
                                ]
                            }
                        ]
                    },
                    {
                        "code": [
                            {
                                "coding": [
                                    {
                                        "system": "http://snomed.info/sct",
                                        "code": "42399005",
                                        "display": "Producción excesiva de esputo (hallazgo)"
                                    }
                                ]
                            }
                        ]
                    }
                ],
                "note": [
                    {
                        "text": "Enfermedad progresiva caracterizada por limitación persistente al flujo de aire debido a inflamación y daño en las vías respiratorias y los alvéolos."
                    },
                    {
                        "text": "El paciente con EPOC tiene un mayor riesgo de infecciones pulmonares recurrentes como neumonía."
                    },
                    {
                        "text": "La insuficiencia respiratoria puede complicarse en episodios agudos."
                    }
                ]
            }
        },
        {
            "resource": {
                "resourceType": "Condition",
                "id": "condition-1",
                "meta": {
                    "profile": [
                        "http://co.fhir.guide/core/StructureDefinition/ConditionCO"
                    ]
                },
                "clinicalStatus": {
                    "coding": [
                        {
                            "system": "http://terminology.hl7.org/CodeSystem/condition-clinical",
                            "code": "active",
                            "display": "Active"
                        }
                    ]
                },
                "verificationStatus": {
                    "coding": [
                        {
                            "system": "http://terminology.hl7.org/CodeSystem/condition-ver-status",
                            "code": "confirmed",
                            "display": "Confirmed"
                        }
                    ]
                },
                "category": [
                    {
                        "coding": [
                            {
                                "system": "http://terminology.hl7.org/CodeSystem/condition-category",
                                "code": "encounter-diagnosis",
                                "display": "Encounter Diagnosis"
                            }
                        ]
                    }
                ],
                "subject": {
                    "reference": "Patient/9bb9e704-ed22-4eae-83e0-7d040605ed3b"
                },
                "code": {
                    "coding": [
                        {
                            "system": "http://hl7.org/fhir/sid/icd-10",
                            "code": "I50.9",
                            "display": "INSUFICIENCIA CARDIACA, NO ESPECIFICADA"
                        }
                    ]
                },
                "recordedDate": "2024-12-09",
                "recorder": {
                    "reference": "Practitioner/feb1e63b-d4ed-4b53-9d1f-8d9efa339b0a"
                },
                "asserter": {
                    "reference": "Practitioner/feb1e63b-d4ed-4b53-9d1f-8d9efa339b0a"
                },
                "evidence": [
                    {
                        "code": [
                            {
                                "coding": [
                                    {
                                        "system": "http://snomed.info/sct",
                                        "code": "267036007",
                                        "display": "Disnea (hallazgo)"
                                    }
                                ]
                            }
                        ]
                    },
                    {
                        "code": [
                            {
                                "coding": [
                                    {
                                        "system": "http://snomed.info/sct",
                                        "code": "42343007",
                                        "display": "Edema en extremidades inferiores (hallazgo)"
                                    }
                                ]
                            }
                        ]
                    },
                    {
                        "code": [
                            {
                                "coding": [
                                    {
                                        "system": "http://snomed.info/sct",
                                        "code": "84229001",
                                        "display": "Fatiga y debilidad general (hallazgo)"
                                    }
                                ]
                            }
                        ]
                    },
                    {
                        "code": [
                            {
                                "coding": [
                                    {
                                        "system": "http://snomed.info/sct",
                                        "code": "109002",
                                        "display": "Taquicardia (hallazgo)"
                                    }
                                ]
                            }
                        ]
                    }
                ],
                "note": [
                    {
                        "text": "Trastorno en el cual el corazón no puede bombear suficiente sangre para satisfacer las necesidades del cuerpo, lo que lleva a congestión en los pulmones y otros tejidos."
                    },
                    {
                        "text": "La insuficiencia cardíaca puede exacerbar la dificultad respiratoria en casos de neumonía, debido a la congestión pulmonar preexistente."
                    },
                    {
                        "text": "El paciente con insuficiencia cardíaca tiene un mayor riesgo de infecciones pulmonares debido a una disminución en la eficiencia de la circulación pulmonar y una inmunidad comprometida."
                    },
                    {
                        "text": "El manejo debe ser cuidadoso para evitar sobrecarga de líquidos durante la terapia de rehidratación o antibiótica."
                    }
                ]
            }
        },
        {
            "resource": {
                "resourceType": "Encounter",
                "id": "1999576c-46ec-40b2-b663-c84c3764cd2b",
                "meta": {
                    "profile": [
                        "http://co.fhir.guide/core/StructureDefinition/EncounterConsultationCO"
                    ]
                },
                "identifier": [
                    {
                        "id": "InvoiceIdentifier",
                        "use": "official",
                        "system": "http://co.fhir.guide/NamingSystem/Invoices",
                        "value": "1999576"
                    },
                    {
                        "id": "EncounterIdentifier",
                        "use": "usual",
                        "system": "http://co.fhir.guide/NamingSystem/Encounters",
                        "value": "ADT-46ec-40b2"
                    },
                    {
                        "id": "AuthorizationIdentifier",
                        "use": "official",
                        "system": "http://co.fhir.guide/NamingSystem/EncounterAuthorization",
                        "value": "AUT-b663-c84c3764cd2b"
                    }
                ],
                "class": {
                    "system": "http://terminology.hl7.org/CodeSystem/v3-ActCode",
                    "code": "AMB",
                    "display": "ambulatory"
                },
                "type": [
                    {
                        "coding": [
                            {
                                "system": "http://terminology.fhir.guide/co/CodeSystem/ColombianEncounterPurpose",
                                "code": "07",
                                "display": "Detección de alteraciones del adulto"
                            }
                        ]
                    }
                ],
                "serviceType": {
                    "coding": [
                        {
                            "system": "http://terminology.fhir.guide/co/CodeSystem/CUPS",
                            "code": "890201",
                            "display": "CONSULTA DE PRIMERA VEZ POR MEDICINA GENERAL"
                        }
                    ]
                },
                "period": {
                    "start": "2024-12-05T10:30:00-05:00",
                    "end": "2024-12-05T11:00:00-05:00"
                },
                "subject": {
                    "reference": "Patient/9bb9e704-ed22-4eae-83e0-7d040605ed3b"
                },
                "participant": [
                    {
                        "type": [
                            {
                                "coding": [
                                    {
                                        "system": "http://terminology.hl7.org/CodeSystem/participant-type",
                                        "code": "ATND",
                                        "display": "attender"
                                    }
                                ]
                            }
                        ],
                        "individual": {
                            "reference": "Practitioner/feb1e63b-d4ed-4b53-9d1f-8d9efa339b0a"
                        }
                    }
                ],
                "reasonCode": [
                    {
                        "coding": [
                            {
                                "system": "http://terminology.fhir.guide/co/CodeSystem/ColombianEncounterReason",
                                "code": "13",
                                "display": "Enfermedad general"
                            }
                        ]
                    }
                ],
                "diagnosis": [
                    {
                        "use": {
                            "coding": [
                                {
                                    "system": "http://terminology.fhir.guide/co/CodeSystem/ColombianDiagnosisRole",
                                    "code": "8319008",
                                    "display": "diagnóstico primario"
                                }
                            ]
                        },
                        "id": "MainDiagnosis",
                        "rank": 1,
                        "condition": {
                            "reference": "Condition/0a97ab0e-8199-4040-b7e3-823416a7777e"
                        }
                    },
                    {
                        "use": {
                            "coding": [
                                {
                                    "system": "http://terminology.fhir.guide/co/CodeSystem/ColombianDiagnosisRole",
                                    "code": "398192003",
                                    "display": "comorbilidades"
                                }
                            ]
                        },
                        "id": "Comobility-1",
                        "rank": 2,
                        "condition": {
                            "reference": "Condition/b368be4f-b8fa-41ab-9e8d-28f1c820fb2d"
                        }
                    },
                    {
                        "use": {
                            "coding": [
                                {
                                    "system": "http://terminology.fhir.guide/co/CodeSystem/ColombianDiagnosisRole",
                                    "code": "398192003",
                                    "display": "comorbilidades"
                                }
                            ]
                        },
                        "id": "Comobility-1",
                        "rank": 3,
                        "condition": {
                            "reference": "Condition/36be2a2a-72ec-41ca-bd5b-9bc362d5cc10"
                        }
                    }
                ],
                "location": [
                    {
                        "location": {
                            "reference": "Location/29c2e207-7c1e-4581-8394-c126875aa896"
                        }
                    }
                ],
                "status": "finished",
                "serviceProvider": {
                    "reference": "Organization/3565ccc1-95b4-47ef-8cc9-5652dba007e6"
                }
            }
        },
        {
            "resource": {
                "resourceType": "Practitioner",
                "id": "feb1e63b-d4ed-4b53-9d1f-8d9efa339b0a",
                "meta": {
                    "versionId": "1",
                    "lastUpdated": "2024-10-01T19:55:12.468+00:00",
                    "profile": [
                        "http://co.fhir.guide/core/StructureDefinition/PractitionerCO"
                    ]
                },
                "identifier": [
                    {
                        "id": "NationalPersonIdentifier-0",
                        "use": "official",
                        "type": {
                            "coding": [
                                {
                                    "system": "http://terminology.hl7.org/CodeSystem/v2-0203",
                                    "code": "PN",
                                    "display": "Person number"
                                },
                                {
                                    "system": "http://co.fhir.guide/terminology/CodeSystem/ColombianPersonIdentifiers",
                                    "code": "CC",
                                    "display": "Cédula ciudadanía"
                                }
                            ]
                        },
                        "value": "25709065",
                        "period": {
                            "start": "1999-11-19"
                        }
                    }
                ],
                "active": true,
                "name": [
                    {
                        "use": "official",
                        "family": "Casas Hernandez",
                        "_family": {
                            "extension": [
                                {
                                    "url": "http://co.fhir.guide/core/StructureDefinition/ExtensionFathersFamilyName",
                                    "valueString": "Casas"
                                },
                                {
                                    "url": "http://co.fhir.guide/core/StructureDefinition/ExtensionMothersFamilyName",
                                    "valueString": "Hernandez"
                                }
                            ]
                        },
                        "given": [
                            "Gregorio",
                            "José"
                        ],
                        "prefix": [
                            "Dr"
                        ],
                        "suffix": [
                            "MD"
                        ]
                    }
                ],
                "telecom": [
                    {
                        "id": "TelecomMobile-0",
                        "system": "phone",
                        "value": "+57(333)222-1111",
                        "use": "mobile"
                    },
                    {
                        "id": "TelecomEmail-0",
                        "system": "email",
                        "value": "gregorio.casas@example.com"
                    }
                ],
                "address": [
                    {
                        "use": "work",
                        "type": "physical",
                        "text": "Cl. 7 #40 00, Chapinero",
                        "city": "Bogotá D.C.",
                        "_city": {
                            "extension": [
                                {
                                    "url": "http://co.fhir.guide/core/StructureDefinition/ExtensionDivipolaMunicipality",
                                    "valueCoding": {
                                        "system": "http://co.fhir.guide/terminology/CodeSystem/DIVIPOLA",
                                        "code": "11001"
                                    }
                                }
                            ]
                        },
                        "district": "Chapinero",
                        "state": "Bogotá D.C.",
                        "_state": {
                            "extension": [
                                {
                                    "url": "http://co.fhir.guide/core/StructureDefinition/ExtensionDivipolaDepartment",
                                    "valueCoding": {
                                        "system": "http://co.fhir.guide/terminology/CodeSystem/DIVIPOLA",
                                        "code": "11"
                                    }
                                }
                            ]
                        },
                        "postalCode": "11001",
                        "country": "CO"
                    }
                ],
                "gender": "male",
                "birthDate": "1982-11-19",
                "qualification": [
                    {
                        "identifier": [
                            {
                                "use": "official",
                                "type": {
                                    "coding": [
                                        {
                                            "system": "http://terminology.hl7.org/CodeSystem/v2-0203",
                                            "code": "LN",
                                            "display": "License number"
                                        }
                                    ]
                                },
                                "system": "https://web.sispro.gov.co/THS/",
                                "value": "25709065",
                                "assigner": {
                                    "type": "Organization",
                                    "display": "MinSalud"
                                }
                            }
                        ],
                        "code": {
                            "coding": [
                                {
                                    "system": "http://co.fhir.guide/terminology/CodeSystem/RETHUSqualification",
                                    "code": "003",
                                    "display": "Medicina"
                                }
                            ]
                        },
                        "period": {
                            "start": "2007-09-23"
                        }
                    },
                    {
                        "identifier": [
                            {
                                "use": "official",
                                "type": {
                                    "coding": [
                                        {
                                            "system": "http://terminology.hl7.org/CodeSystem/v2-0203",
                                            "code": "LN",
                                            "display": "License number"
                                        }
                                    ]
                                },
                                "system": "https://web.sispro.gov.co/THS/",
                                "value": "25709065",
                                "assigner": {
                                    "type": "Organization",
                                    "display": "MinSalud"
                                }
                            }
                        ],
                        "code": {
                            "coding": [
                                {
                                    "system": "http://co.fhir.guide/terminology/CodeSystem/RETHUSqualification",
                                    "code": "M1304",
                                    "display": "Enfermedades infecciosas"
                                }
                            ]
                        },
                        "period": {
                            "start": "2013-02-14"
                        }
                    }
                ]
            }
        },
        {
            "resource": {
                "resourceType": "Organization",
                "id": "3565ccc1-95b4-47ef-8cc9-5652dba007e6",
                "meta": {
                    "versionId": "2",
                    "lastUpdated": "2024-10-04T16:05:01.111+00:00",
                    "profile": [
                        "http://co.fhir.guide/core/StructureDefinition/CareDeliveryOrganizationCO"
                    ]
                },
                "identifier": [
                    {
                        "id": "TaxIdentifier-0",
                        "use": "official",
                        "type": {
                            "coding": [
                                {
                                    "system": "http://terminology.hl7.org/CodeSystem/v2-0203",
                                    "code": "TAX",
                                    "display": "Tax ID number"
                                },
                                {
                                    "system": "http://co.fhir.guide/terminology/CodeSystem/ColombianOrganizationIdentifiers",
                                    "code": "NIT",
                                    "display": "Número de Identificación Tributaria"
                                }
                            ]
                        },
                        "value": "9000000-0",
                        "period": {
                            "start": "1982-07-20"
                        }
                    },
                    {
                        "id": "HealthcareProviderIdentifier-0",
                        "use": "official",
                        "type": {
                            "coding": [
                                {
                                    "system": "http://terminology.hl7.org/CodeSystem/v2-0203",
                                    "code": "PRN",
                                    "display": "Provider number"
                                },
                                {
                                    "system": "http://co.fhir.guide/terminology/CodeSystem/ColombianOrganizationIdentifiers",
                                    "code": "CodigoPrestador",
                                    "display": "Código de habilitación de prestador de servicios de salud"
                                }
                            ]
                        },
                        "system": "https://prestadores.minsalud.gov.co/habilitacion/",
                        "value": "1100100011",
                        "period": {
                            "start": "1997-07-21"
                        }
                    }
                ],
                "active": true,
                "type": [
                    {
                        "coding": [
                            {
                                "system": "http://co.fhir.guide/terminology/CodeSystem/ColombianProviderClass",
                                "code": "IPS",
                                "display": "Institución Prestadora de Servicios de Salud"
                            }
                        ]
                    },
                    {
                        "coding": [
                            {
                                "system": "http://co.fhir.guide/terminology/CodeSystem/ColombianLegalNatureType",
                                "code": "PRIV",
                                "display": "Privada"
                            }
                        ]
                    },
                    {
                        "coding": [
                            {
                                "system": "http://co.fhir.guide/terminology/CodeSystem/ColombianHealthcareLevel",
                                "code": "4",
                                "display": "Nivel IV"
                            }
                        ]
                    }
                ],
                "name": "HOSPITAL GENERAL CENTRAL",
                "alias": [
                    "HGC",
                    "HOSPITAL CENTRAL",
                    "HOSPITAL GENERAL"
                ],
                "telecom": [
                    {
                        "id": "TelecomPhone-0",
                        "system": "phone",
                        "value": "+57(000)000-0000"
                    },
                    {
                        "id": "TelecomURL-0",
                        "system": "url",
                        "value": "http://hospital.example.com"
                    }
                ],
                "address": [
                    {
                        "use": "work",
                        "type": "physical",
                        "text": "Cl. 7 #40 00, Chapinero",
                        "city": "Bogotá D.C.",
                        "_city": {
                            "extension": [
                                {
                                    "url": "http://co.fhir.guide/core/StructureDefinition/ExtensionDivipolaMunicipality",
                                    "valueCoding": {
                                        "system": "http://co.fhir.guide/terminology/CodeSystem/DIVIPOLA",
                                        "code": "11001"
                                    }
                                }
                            ]
                        },
                        "district": "Chapinero",
                        "state": "Bogotá D.C.",
                        "_state": {
                            "extension": [
                                {
                                    "url": "http://co.fhir.guide/core/StructureDefinition/ExtensionDivipolaDepartment",
                                    "valueCoding": {
                                        "system": "http://co.fhir.guide/terminology/CodeSystem/DIVIPOLA",
                                        "code": "11"
                                    }
                                }
                            ]
                        },
                        "postalCode": "11001",
                        "country": "CO"
                    }
                ]
            }
        }
    ]
}