{
    "resourceType": "Bundle",
    "type": "transaction",
    "entry": [
        {
            "resource": {
                "resourceType": "Condition",
                "id": "0a97ab0e-8199-4040-b7e3-823416a7777e",
                "meta": {
                    "profile": [
                        "http://co.fhir.guide/core/StructureDefinition/ConditionCO"
                    ]
                },
                "clinicalStatus": {
                    "coding": [
                        {
                            "system": "http://terminology.hl7.org/CodeSystem/condition-clinical",
                            "code": "active",
                            "display": "Active"
                        }
                    ]
                },
                "verificationStatus": {
                    "coding": [
                        {
                            "system": "http://terminology.hl7.org/CodeSystem/condition-ver-status",
                            "code": "confirmed",
                            "display": "Confirmed"
                        }
                    ]
                },
                "category": [
                    {
                        "coding": [
                            {
                                "system": "http://terminology.hl7.org/CodeSystem/condition-category",
                                "code": "encounter-diagnosis",
                                "display": "Encounter Diagnosis"
                            }
                        ]
                    }
                ],
                "subject": {
                    "reference": "Patient/9bb9e704-ed22-4eae-83e0-7d040605ed3b"
                },
                "code": {
                    "coding": [
                        {
                            "system": "http://hl7.org/fhir/sid/icd-10",
                            "code": "J15.9",
                            "display": "NEUMONIA BACTERIANA, NO ESPECIFICADA"
                        }
                    ]
                },
                "recordedDate": "2024-12-05",
                "recorder": {
                    "reference": "Practitioner/feb1e63b-d4ed-4b53-9d1f-8d9efa339b0a"
                },
                "asserter": {
                    "reference": "Practitioner/feb1e63b-d4ed-4b53-9d1f-8d9efa339b0a"
                },
                "evidence": [
                    {
                        "code": [
                            {
                                "coding": [
                                    {
                                        "system": "http://snomed.info/sct",
                                        "code": "386661006",
                                        "display": "Fiebre (hallazgo)"
                                    }
                                ]
                            }
                        ]
                    },
                    {
                        "code": [
                            {
                                "coding": [
                                    {
                                        "system": "http://snomed.info/sct",
                                        "code": "11833005",
                                        "display": "Tos con expectoración (hallazgo)"
                                    }
                                ]
                            }
                        ]
                    },
                    {
                        "code": [
                            {
                                "coding": [
                                    {
                                        "system": "http://snomed.info/sct",
                                        "code": "102592001",
                                        "display": "Dolor torácico pleurítico (hallazgo)"
                                    }
                                ]
                            }
                        ]
                    },
                    {
                        "code": [
                            {
                                "coding": [
                                    {
                                        "system": "http://snomed.info/sct",
                                        "code": "267036007",
                                        "display": "Disnea (hallazgo)"
                                    }
                                ]
                            }
                        ]
                    },
                    {
                        "code": [
                            {
                                "coding": [
                                    {
                                        "system": "http://snomed.info/sct",
                                        "code": "84229001",
                                        "display": "Malestar general (hallazgo)"
                                    }
                                ]
                            }
                        ]
                    },
                    {
                        "detail": [
                            {
                                "reference": "DiagnosticReport/a6e2540d-7ce1-45f4-8e11-8a2161bb9c93",
                                "display": "Radiografía de tórax mostrando infiltrados pulmonares"
                            },
                            {
                                "reference": "DiagnosticReport/441d53b0-09bc-48fe-8172-cef57f3055f6",
                                "display": "Cultivo bacteriano o prueba rápida de detección"
                            }
                        ]
                    }
                ],
                "note": [
                    {
                        "text": "Infección bacteriana del parénquima pulmonar que provoca inflamación y acumulación de líquidos en los alvéolos."
                    },
                    {
                        "text": "Estertores crepitantes a la auscultación"
                    },
                    {
                        "text": "Hipoxemia (confirmada por oximetría o gasometría arterial)"
                    }
                ]
            },
            "request": {
                "method": "POST",
                "url": "Condition/0a97ab0e-8199-4040-b7e3-823416a7777e"
            }
        },
        {
            "resource": {
                "resourceType": "Condition",
                "id": "b368be4f-b8fa-41ab-9e8d-28f1c820fb2d",
                "meta": {
                    "profile": [
                        "http://co.fhir.guide/core/StructureDefinition/ConditionCO"
                    ]
                },
                "clinicalStatus": {
                    "coding": [
                        {
                            "system": "http://terminology.hl7.org/CodeSystem/condition-clinical",
                            "code": "active",
                            "display": "Active"
                        }
                    ]
                },
                "verificationStatus": {
                    "coding": [
                        {
                            "system": "http://terminology.hl7.org/CodeSystem/condition-ver-status",
                            "code": "confirmed",
                            "display": "Confirmed"
                        }
                    ]
                },
                "category": [
                    {
                        "coding": [
                            {
                                "system": "http://terminology.hl7.org/CodeSystem/condition-category",
                                "code": "encounter-diagnosis",
                                "display": "Encounter Diagnosis"
                            }
                        ]
                    }
                ],
                "subject": {
                    "reference": "Patient/9bb9e704-ed22-4eae-83e0-7d040605ed3b"
                },
                "code": {
                    "coding": [
                        {
                            "system": "http://hl7.org/fhir/sid/icd-10",
                            "code": "J44.9",
                            "display": "ENFERMEDAD PULMONAR OBSTRUCTIVA CRONICA, NO ESPECIFICADA"
                        }
                    ]
                },
                "recordedDate": "2024-12-09",
                "recorder": {
                    "reference": "Practitioner/feb1e63b-d4ed-4b53-9d1f-8d9efa339b0a"
                },
                "asserter": {
                    "reference": "Practitioner/feb1e63b-d4ed-4b53-9d1f-8d9efa339b0a"
                },
                "evidence": [
                    {
                        "code": [
                            {
                                "coding": [
                                    {
                                        "system": "http://snomed.info/sct",
                                        "code": "40917007",
                                        "display": "Tos crónica (hallazgo)"
                                    }
                                ]
                            }
                        ]
                    },
                    {
                        "code": [
                            {
                                "coding": [
                                    {
                                        "system": "http://snomed.info/sct",
                                        "code": "267036007",
                                        "display": "Disnea progresiva (hallazgo)"
                                    }
                                ]
                            }
                        ]
                    },
                    {
                        "code": [
                            {
                                "coding": [
                                    {
                                        "system": "http://snomed.info/sct",
                                        "code": "56018004",
                                        "display": "Sibilancias (hallazgo)"
                                    }
                                ]
                            }
                        ]
                    },
                    {
                        "code": [
                            {
                                "coding": [
                                    {
                                        "system": "http://snomed.info/sct",
                                        "code": "42399005",
                                        "display": "Producción excesiva de esputo (hallazgo)"
                                    }
                                ]
                            }
                        ]
                    }
                ],
                "note": [
                    {
                        "text": "Enfermedad progresiva caracterizada por limitación persistente al flujo de aire debido a inflamación y daño en las vías respiratorias y los alvéolos."
                    },
                    {
                        "text": "El paciente con EPOC tiene un mayor riesgo de infecciones pulmonares recurrentes como neumonía."
                    },
                    {
                        "text": "La insuficiencia respiratoria puede complicarse en episodios agudos."
                    }
                ]
            },
            "request": {
                "method": "POST",
                "url": "Condition/b368be4f-b8fa-41ab-9e8d-28f1c820fb2d"
            }
        },
        {
            "resource": {
                "resourceType": "Condition",
                "id": "36be2a2a-72ec-41ca-bd5b-9bc362d5cc10",
                "meta": {
                    "profile": [
                        "http://co.fhir.guide/core/StructureDefinition/ConditionCO"
                    ]
                },
                "clinicalStatus": {
                    "coding": [
                        {
                            "system": "http://terminology.hl7.org/CodeSystem/condition-clinical",
                            "code": "active",
                            "display": "Active"
                        }
                    ]
                },
                "verificationStatus": {
                    "coding": [
                        {
                            "system": "http://terminology.hl7.org/CodeSystem/condition-ver-status",
                            "code": "confirmed",
                            "display": "Confirmed"
                        }
                    ]
                },
                "category": [
                    {
                        "coding": [
                            {
                                "system": "http://terminology.hl7.org/CodeSystem/condition-category",
                                "code": "encounter-diagnosis",
                                "display": "Encounter Diagnosis"
                            }
                        ]
                    }
                ],
                "subject": {
                    "reference": "Patient/9bb9e704-ed22-4eae-83e0-7d040605ed3b"
                },
                "code": {
                    "coding": [
                        {
                            "system": "http://hl7.org/fhir/sid/icd-10",
                            "code": "I50.9",
                            "display": "INSUFICIENCIA CARDIACA, NO ESPECIFICADA"
                        }
                    ]
                },
                "recordedDate": "2024-12-09",
                "recorder": {
                    "reference": "Practitioner/feb1e63b-d4ed-4b53-9d1f-8d9efa339b0a"
                },
                "asserter": {
                    "reference": "Practitioner/feb1e63b-d4ed-4b53-9d1f-8d9efa339b0a"
                },
                "evidence": [
                    {
                        "code": [
                            {
                                "coding": [
                                    {
                                        "system": "http://snomed.info/sct",
                                        "code": "267036007",
                                        "display": "Disnea (hallazgo)"
                                    }
                                ]
                            }
                        ]
                    },
                    {
                        "code": [
                            {
                                "coding": [
                                    {
                                        "system": "http://snomed.info/sct",
                                        "code": "42343007",
                                        "display": "Edema en extremidades inferiores (hallazgo)"
                                    }
                                ]
                            }
                        ]
                    },
                    {
                        "code": [
                            {
                                "coding": [
                                    {
                                        "system": "http://snomed.info/sct",
                                        "code": "84229001",
                                        "display": "Fatiga y debilidad general (hallazgo)"
                                    }
                                ]
                            }
                        ]
                    },
                    {
                        "code": [
                            {
                                "coding": [
                                    {
                                        "system": "http://snomed.info/sct",
                                        "code": "109002",
                                        "display": "Taquicardia (hallazgo)"
                                    }
                                ]
                            }
                        ]
                    }
                ],
                "note": [
                    {
                        "text": "Trastorno en el cual el corazón no puede bombear suficiente sangre para satisfacer las necesidades del cuerpo, lo que lleva a congestión en los pulmones y otros tejidos."
                    },
                    {
                        "text": "La insuficiencia cardíaca puede exacerbar la dificultad respiratoria en casos de neumonía, debido a la congestión pulmonar preexistente."
                    },
                    {
                        "text": "El paciente con insuficiencia cardíaca tiene un mayor riesgo de infecciones pulmonares debido a una disminución en la eficiencia de la circulación pulmonar y una inmunidad comprometida."
                    },
                    {
                        "text": "El manejo debe ser cuidadoso para evitar sobrecarga de líquidos durante la terapia de rehidratación o antibiótica."
                    }
                ]
            },
            "request": {
                "method": "POST",
                "url": "Condition/36be2a2a-72ec-41ca-bd5b-9bc362d5cc10"
            }
        },
        {
            "resource": {
                "resourceType": "Encounter",
                "id": "1999576c-46ec-40b2-b663-c84c3764cd2b",
                "meta": {
                    "profile": [
                        "http://co.fhir.guide/core/StructureDefinition/EncounterConsultationCO"
                    ]
                },
                "identifier": [
                    {
                        "id": "InvoiceIdentifier",
                        "use": "official",
                        "system": "http://co.fhir.guide/NamingSystem/Invoices",
                        "value": "1999576"
                    },
                    {
                        "id": "EncounterIdentifier",
                        "use": "usual",
                        "system": "http://co.fhir.guide/NamingSystem/Encounters",
                        "value": "ADT-46ec-40b2"
                    },
                    {
                        "id": "AuthorizationIdentifier",
                        "use": "official",
                        "system": "http://co.fhir.guide/NamingSystem/EncounterAuthorization",
                        "value": "AUT-b663-c84c3764cd2b"
                    }
                ],
                "class": {
                    "system": "http://terminology.hl7.org/CodeSystem/v3-ActCode",
                    "code": "AMB",
                    "display": "ambulatory"
                },
                "type": [
                    {
                        "coding": [
                            {
                                "system": "http://terminology.fhir.guide/co/CodeSystem/ColombianEncounterPurpose",
                                "code": "07",
                                "display": "Detección de alteraciones del adulto"
                            }
                        ]
                    }
                ],
                "serviceType": {
                    "coding": [
                        {
                            "system": "http://terminology.fhir.guide/co/CodeSystem/CUPS",
                            "code": "890201",
                            "display": "CONSULTA DE PRIMERA VEZ POR MEDICINA GENERAL"
                        }
                    ]
                },
                "period": {
                    "start": "2024-12-05T10:30:00-05:00",
                    "end": "2024-12-05T11:00:00-05:00"
                },
                "subject": {
                    "reference": "Patient/9bb9e704-ed22-4eae-83e0-7d040605ed3b"
                },
                "participant": [
                    {
                        "type": [
                            {
                                "coding": [
                                    {
                                        "system": "http://terminology.hl7.org/CodeSystem/participant-type",
                                        "code": "ATND",
                                        "display": "attender"
                                    }
                                ]
                            }
                        ],
                        "individual": {
                            "reference": "Practitioner/feb1e63b-d4ed-4b53-9d1f-8d9efa339b0a"
                        }
                    }
                ],
                "reasonCode": [
                    {
                        "coding": [
                            {
                                "system": "http://terminology.fhir.guide/co/CodeSystem/ColombianEncounterReason",
                                "code": "13",
                                "display": "Enfermedad general"
                            }
                        ]
                    }
                ],
                "diagnosis": [
                    {
                        "use": {
                            "coding": [
                                {
                                    "system": "http://terminology.fhir.guide/co/CodeSystem/ColombianDiagnosisRole",
                                    "code": "8319008",
                                    "display": "diagnóstico primario"
                                }
                            ]
                        },
                        "id": "MainDiagnosis",
                        "rank": 1,
                        "condition": {
                            "reference": "Condition/0a97ab0e-8199-4040-b7e3-823416a7777e"
                        }
                    },
                    {
                        "use": {
                            "coding": [
                                {
                                    "system": "http://terminology.fhir.guide/co/CodeSystem/ColombianDiagnosisRole",
                                    "code": "398192003",
                                    "display": "comorbilidades"
                                }
                            ]
                        },
                        "id": "Comobility-1",
                        "rank": 2,
                        "condition": {
                            "reference": "Condition/b368be4f-b8fa-41ab-9e8d-28f1c820fb2d"
                        }
                    },
                    {
                        "use": {
                            "coding": [
                                {
                                    "system": "http://terminology.fhir.guide/co/CodeSystem/ColombianDiagnosisRole",
                                    "code": "398192003",
                                    "display": "comorbilidades"
                                }
                            ]
                        },
                        "id": "Comobility-1",
                        "rank": 3,
                        "condition": {
                            "reference": "Condition/36be2a2a-72ec-41ca-bd5b-9bc362d5cc10"
                        }
                    }
                ],
                "location": [
                    {
                        "location": {
                            "reference": "Location/29c2e207-7c1e-4581-8394-c126875aa896"
                        }
                    }
                ],
                "status": "finished",
                "serviceProvider": {
                    "reference": "Organization/3565ccc1-95b4-47ef-8cc9-5652dba007e6"
                }
            },
            "request": {
                "method": "POST",
                "url": "Encounter/1999576c-46ec-40b2-b663-c84c3764cd2b"
            }
        }
    ]
}